Folder: Praktikum-test/B 2.2/Messdaten/XRD

Note: B 2.2/Messdaten/XRD/Probe2.txt
; C:\Data\Jenni\Praktikum B2.2\11-12-18-Jörg\Probe2.raw(Diffrac Plus V1.01 file) converted by XCH V1.0
_FILEVERSION=2
_SAMPLE='Probe2'
_SITE='II. Physikalisches Institut'
_ATTACHMENTS_CODE=0
_GONIOMETER_RADIUS=200.500000
_FIXED_DIVSLIT=2.000000
_FIXED_SAMPLESLIT=1.000000
_FIXED_DETSLIT=0.200000
_MONOCHROMATOR=0
; None
_THIN_FILM='N'
_BETA_FILTER='Y'
_FIXED_ANTISLIT=2.000000
_ANALYZER_CODE=0
; None
_DATEMEASURED='13-Dec-2018 08:08:21'
_WL_UNIT='A'
_WL1=1.540590
_WL2=1.544430
_WL3=1.392230
_WLRATIO=0.520000
_ANODE='Cu'
; (Data for Range number 1)
_DRIVE='COUPLED'
_STEPTIME=5.000000
_STEPSIZE=0.020000
_STEPMODE='C'
_START=20.000000
_THETA=10.000000
_2THETA=20.000000
_KHI=0.000000
_PHI=0.000000
_X=0.000000
_Y=0.000000
_Z=0.000000
_DIVERGENCE=0.000000
_ANTISCATTER=0.000000
_DETECTOR=1
; S.C.
_HV=1000.000000
_GAIN=80.000000
_LLD=0.550000
_ULD=1.310000
_DETECTORSLIT='unkn'
_AUX1=0.000000
_AUX2=0.000000
_AUX3=0.000000
_TIMESTARTED=18.000000
_ROTATION_SPEED=120.000000
_TEMP_RATE=-1.000000
_TEMP_DELAY=-1.000000
_KV=40
_MA=40
_RANGE_WL=1.540590
_3DPLANE=0
_2THETACOUNTS

File: Probe2.UXD
; C:\Data\Jenni\Praktikum B2.2\11-12-18-Jï¿½rg\Probe2.raw(Diffrac Plus V1.01 file) converted by XCH V1.0
_FILEVERSION=2
_SAMPLE='Probe2'
_SITE='II. Physikalisches Institut'
_ATTACHMENTS_CODE=0
_GONIOMETER_RADIUS=200.5
_FIXED_DIVSLIT=2.000000
_FIXED_SAMPLESLIT=1.000000
_FIXED_DETSLIT=0.200000
_MONOCHROMATOR=0
; None
_THIN_FILM='N'
_BETA_FILTER='Y'
_FIXED_ANTISLIT=2.000000
_ANALYZER_CODE=0
; None
_DATEMEASURED='13-Dec-2018 08:08:21'
_WL_UNIT='A'
_WL1=1.540590
_WL2=1.544430
_WL3=1.392230
_WLRATIO=0.520000
_ANODE='Cu'
; (Data for Range number 1)
_DRIVE='COUPLED'
_STEPTIME=5.000000
_STEPSIZE=0.020000
_STEPMODE='C'
_START=20
_THETA=10
_2THETA=20
_KHI=0.000000
_PHI=0.000000
_X=0.000000
_Y=0.000000
_Z=0.000000
_DIVERGENCE=0.000000
_ANTISCATTER=0.000000
_DETECTOR=1
; S.C.
_HV=1000
_GAIN=80
_LLD=0.550000
_ULD=1.310000
_DETECTORSLIT='unkn'
_AUX1=0.000000
_AUX2=0.000000
_AUX3=0.000000
_TIMESTARTED=18
_ROTATION_SPEED=120
_TEMP_RATE=-1.000000
_TEMP_DELAY=-1.000000
_KV=40
_MA=40
_RANGE_WL=1.540590
_3DPLANE=0
_2THETACOUNTS
  20.0000       533
  20.3000       591
  20.6000       523
  20.9000       574
  21.2000       604
  21.5000       599
  21.8000       621
  22.1000       613
  22.4000       677
  22.7000       655
  23.0000       621
  23.3000       706
  23.6000       665
  23.9000       715
  24.2000       718
  24.5000       678
  24.8000       696
  25.1000       702
  25.4000       701
  25.7000       700
  26.0000       622
  26.3000       619
  26.6000       665
  26.9000       656
  27.2000       692
  27.5000       700
  27.8000       661
  28.1000       623
  28.4000       641
  28.7000       630
  29.0000       646
  29.3000       619
  29.6000       688
  29.9000       592
  30.2000       655
  30.5000       611
  30.8000       637
  31.1000       586
  31.4000       587
  31.7000       621
  32.0000       616
  32.3000       647
  32.6000       617
  32.9000       611
  33.2000       586
  33.5000       642
  33.8000       577
  34.1000       644
  34.4000       604
  34.7000       636
  35.0000       599
  35.3000       601
  35.6000       605
  35.9000       580
  36.2000       609
  36.5000       614
  36.8000       591
  37.1000       639
  37.4000       602
  37.7000       646
  38.0000       594
  38.3000       687
  38.6000       639
  38.9000       630
  39.2000       567
  39.5000       614
  39.8000       611
  40.1000       649
  40.4000       640
  40.7000       685
  41.0000       739
  41.3000       785
  41.6000      1873
  41.9000      4306
  42.2000      2009
  42.5000       869
  42.8000       710
  43.1000       659
  43.4000       655
  43.7000       662
  44.0000       709
  44.3000       662
  44.6000       661
  44.9000       643
  45.2000       678
  45.5000       650
  45.8000       639
  46.1000       627
  46.4000       671
  46.7000       670
  47.0000       674
  47.3000       670
  47.6000       758
  47.9000       893
  48.2000      1250
  48.5000      2411
  48.8000      2884
  49.1000      1431
  49.4000       846
  49.7000       737
  50.0000       673
  50.3000       667
  50.6000       724
  50.9000       671
  51.2000       685
  51.5000       659
  51.8000       643
  52.1000       652
  52.4000       639
  52.7000       668
  53.0000       678
  53.3000       643
  53.6000       674
  53.9000       729
  54.2000       687
  54.5000       680
  54.8000       726
  55.1000       700
  55.4000       744
  55.7000       724
  56.0000       658
  56.3000       694
  56.6000       644
  56.9000       679
  57.2000       646
  57.5000       690
  57.8000       714
  58.1000       677
  58.4000       722
  58.7000       650
  59.0000       687
  59.3000       649
  59.6000       675
  59.9000       723
  60.2000       683
  60.5000       700
  60.8000       699
  61.1000       683
  61.4000       691
  61.7000       711
  62.0000       687
  62.3000       702
  62.6000       649
  62.9000       759
  63.2000       727
  63.5000       668
  63.8000       701
  64.1000       700
  64.4000       666
  64.7000       711
  65.0000       712
  65.3000       717
  65.6000       675
  65.9000       710
  66.2000       700
  66.5000       700
  66.8000       691
  67.1000       662
  67.4000       714
  67.7000       634
  68.0000       681
  68.3000       742
  68.6000       767
  68.9000       711
  69.2000       673
  69.5000       710
  69.8000       698
  70.1000       698
  70.4000       792
  70.7000       848
  71.0000      1134
  71.3000      1385
  71.6000      1130
  71.9000       909
  72.2000       757
  72.5000       756
  72.8000       749
  73.1000       719
  73.4000       701
  73.7000       732
  74.0000       735
  74.3000       716
  74.6000       694
  74.9000       749
  75.2000       781
  75.5000       762
  75.8000       762
  76.1000       775
  76.4000       757
  76.7000       688
  77.0000       703
  77.3000       709
  77.6000       765
  77.9000       741
  78.2000       734
  78.5000       768
  78.8000       693
  79.1000       697
  79.4000       691
  79.7000       752
  80.0000       758
  80.3000       761
  80.6000       757
  80.9000       751
  81.2000       762
  81.5000       735
  81.8000       708
  82.1000       816
  82.4000       739
  82.7000       791
  83.0000       752
  83.3000       794
  83.6000       785
  83.9000       754
  84.2000       729
  84.5000       753
  84.8000       794
  85.1000       873
  85.4000      1020
  85.7000      1238
  86.0000      1470
  86.3000      1491
  86.6000      1105
  86.9000       892
  87.2000       788
  87.5000       788
  87.8000       748
  88.1000       790
  88.4000       712
  88.7000       737
  89.0000       748
  89.3000       734
  89.6000       762
  89.9000       725
  90.2000       724
  90.5000       876
  90.8000       940
  91.1000       947
  91.4000       876
  91.7000       769
  92.0000       738
  92.3000       729
  92.6000       746
  92.9000       745
  93.2000       780
  93.5000       743
  93.8000       709
  94.1000       788
  94.4000       724
  94.7000       753
  95.0000       732
  95.3000       762
  95.6000       787
  95.9000       778
  96.2000       788
  96.5000       726
  96.8000       765
  97.1000       756
  97.4000       757
  97.7000       750
  98.0000       724
  98.3000       747
  98.6000       740
  98.9000       752
  99.2000       747
  99.5000       728
  99.8000       731
 100.1000       720
 100.4000       740
 100.7000       776
 101.0000       811
 101.3000       798
 101.6000       746
 101.9000       785
 102.2000       777
 102.5000       770
 102.8000       805
 103.1000       722
 103.4000       765
 103.7000       743
 104.0000       823
 104.3000       808
 104.6000       772
 104.9000       749
 105.0000       749

File: Probe3.UXD
; C:\Data\Jenni\Praktikum B2.2\11-12-18-Jörg\Probe3.raw(Diffrac Plus V1.01 file) converted by XCH V1.0
_FILEVERSION=2
_SAMPLE='Probe3'
_SITE='II. Physikalisches Institut'
_ATTACHMENTS_CODE=0
_GONIOMETER_RADIUS=200.5
_FIXED_DIVSLIT=2.000000
_FIXED_SAMPLESLIT=1.000000
_FIXED_DETSLIT=0.200000
_MONOCHROMATOR=0
; None
_THIN_FILM='N'
_BETA_FILTER='Y'
_FIXED_ANTISLIT=2.000000
_ANALYZER_CODE=0
; None
_DATEMEASURED='13-Dec-2018 14:04:22'
_WL_UNIT='A'
_WL1=1.540590
_WL2=1.544430
_WL3=1.392230
_WLRATIO=0.520000
_ANODE='Cu'
; (Data for Range number 1)
_DRIVE='COUPLED'
_STEPTIME=5.000000
_STEPSIZE=0.020000
_STEPMODE='C'
_START=20
_THETA=10
_2THETA=20
_KHI=0.000000
_PHI=0.000000
_X=0.000000
_Y=0.000000
_Z=0.000000
_DIVERGENCE=0.000000
_ANTISCATTER=0.000000
_DETECTOR=1
; S.C.
_HV=1000
_GAIN=80
_LLD=0.550000
_ULD=1.310000
_DETECTORSLIT='unkn'
_AUX1=0.000000
_AUX2=0.000000
_AUX3=0.000000
_TIMESTARTED=12
_ROTATION_SPEED=120
_TEMP_RATE=-1.000000
_TEMP_DELAY=-1.000000
_KV=40
_MA=40
_RANGE_WL=1.540590
_3DPLANE=0
_2THETACOUNTS
  20.0000       402
  20.3000       370
  20.6000       402
  20.9000       422
  21.2000       399
  21.5000       427
  21.8000       421
  22.1000       441
  22.4000       463
  22.7000       448
  23.0000       495
  23.3000       491
  23.6000       478
  23.9000       515
  24.2000       515
  24.5000       468
  24.8000       482
  25.1000       466
  25.4000       465
  25.7000       477
  26.0000       463
  26.3000       514
  26.6000       478
  26.9000       462
  27.2000       435
  27.5000       496
  27.8000       505
  28.1000       501
  28.4000       479
  28.7000       495
  29.0000       479
  29.3000       455
  29.6000       524
  29.9000       504
  30.2000       505
  30.5000       517
  30.8000       470
  31.1000       497
  31.4000       505
  31.7000       537
  32.0000       564
  32.3000       558
  32.6000       520
  32.9000       528
  33.2000       525
  33.5000       570
  33.8000       600
  34.1000       553
  34.4000       515
  34.7000       507
  35.0000       526
  35.3000       537
  35.6000       495
  35.9000       496
  36.2000       549
  36.5000       517
  36.8000       520
  37.1000       543
  37.4000       536
  37.7000       569
  38.0000       592
  38.3000       513
  38.6000       558
  38.9000       546
  39.2000       609
  39.5000       638
  39.8000       783
  40.1000      1116
  40.4000      1604
  40.7000      1978
  41.0000      2424
  41.3000      2281
  41.6000      1534
  41.9000       926
  42.2000       609
  42.5000       603
  42.8000       561
  43.1000       576
  43.4000       529
  43.7000       589
  44.0000       612
  44.3000       580
  44.6000       561
  44.9000       561
  45.2000       591
  45.5000       642
  45.8000       727
  46.1000       734
  46.4000       719
  46.7000       810
  47.0000       886
  47.3000      1048
  47.6000      1280
  47.9000      1450
  48.2000      1301
  48.5000      1376
  48.8000       785
  49.1000       635
  49.4000       539
  49.7000       614
  50.0000       537
  50.3000       545
  50.6000       588
  50.9000       586
  51.2000       569
  51.5000       572
  51.8000       553
  52.1000       601
  52.4000       570
  52.7000       544
  53.0000       538
  53.3000       506
  53.6000       556
  53.9000       562
  54.2000       576
  54.5000       671
  54.8000       653
  55.1000       601
  55.4000       544
  55.7000       541
  56.0000       589
  56.3000       559
  56.6000       538
  56.9000       501
  57.2000       546
  57.5000       529
  57.8000       543
  58.1000       521
  58.4000       565
  58.7000       563
  59.0000       559
  59.3000       561
  59.6000       618
  59.9000       550
  60.2000       640
  60.5000       585
  60.8000       567
  61.1000       560
  61.4000       586
  61.7000       596
  62.0000       604
  62.3000       580
  62.6000       565
  62.9000       606
  63.2000       582
  63.5000       569
  63.8000       517
  64.1000       524
  64.4000       595
  64.7000       564
  65.0000       589
  65.3000       553
  65.6000       547
  65.9000       589
  66.2000       576
  66.5000       580
  66.8000       588
  67.1000       631
  67.4000       588
  67.7000       595
  68.0000       639
  68.3000       638
  68.6000       663
  68.9000       681
  69.2000       654
  69.5000       759
  69.8000       849
  70.1000       872
  70.4000       846
  70.7000       825
  71.0000       927
  71.3000       842
  71.6000       681
  71.9000       684
  72.2000       587
  72.5000       589
  72.8000       582
  73.1000       579
  73.4000       601
  73.7000       547
  74.0000       535
  74.3000       608
  74.6000       553
  74.9000       610
  75.2000       610
  75.5000       610
  75.8000       669
  76.1000       620
  76.4000       638
  76.7000       655
  77.0000       566
  77.3000       593
  77.6000       584
  77.9000       653
  78.2000       592
  78.5000       591
  78.8000       594
  79.1000       590
  79.4000       581
  79.7000       613
  80.0000       633
  80.3000       605
  80.6000       688
  80.9000       621
  81.2000       640
  81.5000       637
  81.8000       625
  82.1000       665
  82.4000       641
  82.7000       655
  83.0000       714
  83.3000       645
  83.6000       637
  83.9000       777
  84.2000       814
  84.5000       858
  84.8000       923
  85.1000       893
  85.4000       852
  85.7000       935
  86.0000       989
  86.3000       804
  86.6000       695
  86.9000       696
  87.2000       612
  87.5000       653
  87.8000       645
  88.1000       630
  88.4000       651
  88.7000       658
  89.0000       674
  89.3000       677
  89.6000       733
  89.9000       669
  90.2000       723
  90.5000       615
  90.8000       699
  91.1000       669
  91.4000       620
  91.7000       587
  92.0000       585
  92.3000       618
  92.6000       575
  92.9000       592
  93.2000       658
  93.5000       611
  93.8000       624
  94.1000       585
  94.4000       584
  94.7000       585
  95.0000       626
  95.3000       684
  95.6000       644
  95.9000       608
  96.2000       613
  96.5000       608
  96.8000       623
  97.1000       640
  97.4000       657
  97.7000       555
  98.0000       643
  98.3000       633
  98.6000       628
  98.9000       622
  99.2000       627
  99.5000       612
  99.8000       664
 100.1000       664
 100.4000       687
 100.7000       639
 101.0000       627
 101.3000       679
 101.6000       617
 101.9000       616
 102.2000       629
 102.5000       690
 102.8000       634
 103.1000       645
 103.4000       632
 103.7000       592
 104.0000       587
 104.3000       623
 104.6000       646
 104.9000       683
 105.0000       615

File: Probe4.UXD
; C:\Data\Jenni\Praktikum B2.2\Probe4_450abgeschreckt_abgeschliffen_Messung.raw(Diffrac Plus V1.01 file) converted by XCH V1.0
_FILEVERSION=2
_SAMPLE='Probe 4'
_SITE='II. Physikalisches Institut'
_ATTACHMENTS_CODE=0
_GONIOMETER_RADIUS=200.5
_FIXED_DIVSLIT=2.000000
_FIXED_SAMPLESLIT=1.000000
_FIXED_DETSLIT=0.200000
_MONOCHROMATOR=0
; None
_THIN_FILM='N'
_BETA_FILTER='Y'
_FIXED_ANTISLIT=2.000000
_ANALYZER_CODE=0
; None
_DATEMEASURED='23-Nov-2018 12:39:02'
_WL_UNIT='A'
_WL1=1.540590
_WL2=1.544430
_WL3=1.392230
_WLRATIO=0.520000
_ANODE='Cu'
; (Data for Range number 1)
_DRIVE='COUPLED'
_STEPTIME=5.000000
_STEPSIZE=0.020000
_STEPMODE='C'
_START=20
_THETA=10
_2THETA=20
_KHI=0.000000
_PHI=0.000000
_X=0.000000
_Y=0.000000
_Z=0.000000
_DIVERGENCE=0.000000
_ANTISCATTER=0.000000
_DETECTOR=1
; S.C.
_HV=1000
_GAIN=80
_LLD=0.550000
_ULD=1.310000
_DETECTORSLIT='unkn'
_AUX1=0.000000
_AUX2=0.000000
_AUX3=0.000000
_TIMESTARTED=14
_ROTATION_SPEED=120
_TEMP_RATE=-1.000000
_TEMP_DELAY=-1.000000
_KV=40
_MA=40
_RANGE_WL=1.540590
_3DPLANE=0
_2THETACOUNTS
  20.0000       444
  20.3000       427
  20.6000       409
  20.9000       451
  21.2000       461
  21.5000       484
  21.8000       438
  22.1000       459
  22.4000       452
  22.7000       450
  23.0000       432
  23.3000       444
  23.6000       405
  23.9000       415
  24.2000       460
  24.5000       421
  24.8000       406
  25.1000       455
  25.4000       407
  25.7000       458
  26.0000       390
  26.3000       423
  26.6000       441
  26.9000       423
  27.2000       449
  27.5000       458
  27.8000       423
  28.1000       380
  28.4000       458
  28.7000       409
  29.0000       425
  29.3000       419
  29.6000       461
  29.9000       410
  30.2000       423
  30.5000       427
  30.8000       477
  31.1000       407
  31.4000       447
  31.7000       437
  32.0000       468
  32.3000       439
  32.6000       439
  32.9000       418
  33.2000       430
  33.5000       440
  33.8000       438
  34.1000       438
  34.4000       419
  34.7000       392
  35.0000       413
  35.3000       444
  35.6000       376
  35.9000       401
  36.2000       453
  36.5000       506
  36.8000       459
  37.1000       425
  37.4000       402
  37.7000       417
  38.0000       440
  38.3000       412
  38.6000       425
  38.9000       479
  39.2000       534
  39.5000       563
  39.8000       673
  40.1000      1789
  40.4000      4725
  40.7000      2091
  41.0000       687
  41.3000       589
  41.6000       499
  41.9000       481
  42.2000       520
  42.5000       483
  42.8000       473
  43.1000       456
  43.4000       444
  43.7000       464
  44.0000       448
  44.3000       476
  44.6000       434
  44.9000       487
  45.2000       446
  45.5000       445
  45.8000       499
  46.1000       598
  46.4000       795
  46.7000      1252
  47.0000      2175
  47.3000      1449
  47.6000       627
  47.9000       483
  48.2000       460
  48.5000       445
  48.8000       413
  49.1000       447
  49.4000       448
  49.7000       434
  50.0000       436
  50.3000       399
  50.6000       465
  50.9000       453
  51.2000       446
  51.5000       447
  51.8000       433
  52.1000       437
  52.4000       458
  52.7000       425
  53.0000       456
  53.3000       404
  53.6000       447
  53.9000       431
  54.2000       466
  54.5000       445
  54.8000       472
  55.1000       456
  55.4000       461
  55.7000       468
  56.0000       467
  56.3000       471
  56.6000       409
  56.9000       447
  57.2000       402
  57.5000       441
  57.8000       439
  58.1000       466
  58.4000       447
  58.7000       496
  59.0000       458
  59.3000       449
  59.6000       473
  59.9000       440
  60.2000       460
  60.5000       462
  60.8000       449
  61.1000       500
  61.4000       520
  61.7000       454
  62.0000       468
  62.3000       474
  62.6000       445
  62.9000       459
  63.2000       464
  63.5000       468
  63.8000       466
  64.1000       461
  64.4000       448
  64.7000       466
  65.0000       453
  65.3000       464
  65.6000       465
  65.9000       471
  66.2000       458
  66.5000       473
  66.8000       545
  67.1000       451
  67.4000       538
  67.7000       550
  68.0000       544
  68.3000       738
  68.6000      1155
  68.9000      1339
  69.2000       818
  69.5000       578
  69.8000       520
  70.1000       500
  70.4000       485
  70.7000       467
  71.0000       501
  71.3000       438
  71.6000       456
  71.9000       493
  72.2000       519
  72.5000       452
  72.8000       479
  73.1000       494
  73.4000       482
  73.7000       447
  74.0000       469
  74.3000       479
  74.6000       497
  74.9000       501
  75.2000       458
  75.5000       455
  75.8000       468
  76.1000       479
  76.4000       479
  76.7000       447
  77.0000       482
  77.3000       441
  77.6000       495
  77.9000       517
  78.2000       482
  78.5000       528
  78.8000       490
  79.1000       461
  79.4000       508
  79.7000       514
  80.0000       461
  80.3000       498
  80.6000       471
  80.9000       496
  81.2000       496
  81.5000       518
  81.8000       525
  82.1000       661
  82.4000       793
  82.7000      1122
  83.0000      1283
  83.3000      1005
  83.6000       684
  83.9000       552
  84.2000       508
  84.5000       480
  84.8000       431
  85.1000       479
  85.4000       484
  85.7000       452
  86.0000       489
  86.3000       507
  86.6000       513
  86.9000       545
  87.2000       612
  87.5000       754
  87.8000       687
  88.1000       557
  88.4000       498
  88.7000       450
  89.0000       500
  89.3000       474
  89.6000       464
  89.9000       444
  90.2000       464
  90.5000       453
  90.8000       460
  91.1000       473
  91.4000       442
  91.7000       489
  92.0000       478
  92.3000       488
  92.6000       456
  92.9000       500
  93.2000       479
  93.5000       490
  93.8000       469
  94.1000       530
  94.4000       462
  94.7000       498
  95.0000       469
  95.3000       464
  95.6000       454
  95.9000       475
  96.2000       425
  96.5000       457
  96.8000       487
  97.1000       510
  97.4000       468
  97.7000       479
  98.0000       490
  98.3000       474
  98.6000       494
  98.9000       460
  99.2000       465
  99.5000       491
  99.8000       495
 100.1000       460
 100.4000       477
 100.7000       454
 101.0000       503
 101.3000       466
 101.6000       480
 101.9000       497
 102.2000       471
 102.5000       483
 102.8000       487
 103.1000       463
 103.4000       474
 103.7000       528
 104.0000       485
 104.3000       505
 104.6000       518
 104.9000       496
 105.0000       489